/absorption data for Si
/from Martin A. Green / Prog Photovolt Res Appl.30, 164–179 (2022)
/lambda[nm]	alfa[m^-1]
250  1.839E+08
260  1.972E+08
270  2.178E+08
280  2.368E+08
290  2.301E+08
300  1.775E+08
310  1.473E+08
320  1.303E+08
330  1.186E+08
340  1.104E+08
350  1.056E+08
360  1.034E+08
370  7.146E+07
380  3.058E+07
390  1.477E+07
400  9.804E+06
410  6.943E+06
420  5.242E+06
430  3.996E+06
440  3.153E+06
450  2.672E+06
460  2.229E+06
470  1.871E+06
480  1.587E+06
490  1.360E+06
500  1.173E+06
510  1.025E+06
520  9.096E+05
530  8.149E+05
540  7.324E+05
550  6.615E+05
560  6.028E+05
570  5.495E+05
580  5.036E+05
590  4.660E+05
600  4.284E+05
610  3.965E+05
620  3.671E+05
630  3.399E+05
640  3.149E+05
650  2.921E+05
660  2.710E+05
670  2.516E+05
680  2.332E+05
690  2.159E+05
700  2.000E+05
710  1.849E+05
720  1.708E+05
730  1.576E+05
740  1.453E+05
750  1.338E+05
760  1.230E+05
770  1.131E+05
780  1.036E+05
790  9.502E+04
800  8.708E+04
810  7.955E+04
820  7.253E+04
830  6.607E+04
840  5.997E+04
850  5.428E+04
860  4.900E+04
870  4.415E+04
880  3.965E+04
890  3.542E+04
900  3.157E+04
910  2.800E+04
920  2.467E+04
930  2.151E+04
940  1.891E+04
950  1.639E+04
960  1.406E+04
970  1.197E+04
980  1.011E+04
990  8.432E+03
1000  6.923E+03
1010  5.590E+03
1020  4.434E+03
1030  3.387E+03
1040  2.535E+03
1050  1.858E+03
1060  1.327E+03
1070  9.739E+02
1080  7.464E+02
1090  5.669E+02
1100  4.326E+02
1110  3.268E+02
1120  2.439E+02
1130  1.764E+02
1140  1.231E+02
1150  8.133E+01
1160  5.015E+01
1170  2.681E+01
1180  8.659E+00
1190  3.806E+00
1200  2.317E+00
1210  1.388E+00
1220  8.550E-01
1230  4.928E-01
1240  2.566E-01
1250  1.077E-01
1260  4.100E-02
1270  2.275E-02
1280  1.374E-02
1290  8.381E-03
1300  5.318E-03
1310  3.211E-03
1320  1.883E-03
1330  9.603E-04
1340  4.332E-04
1350  2.112E-04
1360  1.119E-04
1370  6.787E-05
1380  4.287E-05
1390  2.545E-05
1400  1.601E-05
1410  9.182E-06
1420  5.845E-06
1430  2.852E-06
1440  1.769E-06
1450  1.205E-06
