/absorption data for Si
/from Martin A. Green / Prog Photovolt Res Appl.30, 164–179 (2022)
/lambda[nm]	alfa[m^-1]
250  1.838E+08
260  1.970E+08
270  2.174E+08
280  2.363E+08
290  2.302E+08
300  1.778E+08
310  1.476E+08
320  1.304E+08
330  1.186E+08
340  1.105E+08
350  1.056E+08
360  1.033E+08
370  7.166E+07
380  3.077E+07
390  1.503E+07
400  1.002E+07
410  7.089E+06
420  5.345E+06
430  4.074E+06
440  3.213E+06
450  2.723E+06
460  2.272E+06
470  1.908E+06
480  1.620E+06
490  1.388E+06
500  1.197E+06
510  1.047E+06
520  9.294E+05
530  8.331E+05
540  7.488E+05
550  6.763E+05
560  6.167E+05
570  5.622E+05
580  5.152E+05
590  4.767E+05
600  4.382E+05
610  4.059E+05
620  3.758E+05
630  3.480E+05
640  3.224E+05
650  2.991E+05
660  2.775E+05
670  2.578E+05
680  2.389E+05
690  2.212E+05
700  2.051E+05
710  1.895E+05
720  1.751E+05
730  1.616E+05
740  1.490E+05
750  1.372E+05
760  1.261E+05
770  1.159E+05
780  1.062E+05
790  9.747E+04
800  8.944E+04
810  8.176E+04
820  7.460E+04
830  6.804E+04
840  6.180E+04
850  5.598E+04
860  5.057E+04
870  4.562E+04
880  4.103E+04
890  3.667E+04
900  3.273E+04
910  2.907E+04
920  2.564E+04
930  2.238E+04
940  1.971E+04
950  1.712E+04
960  1.472E+04
970  1.257E+04
980  1.066E+04
990  8.920E+03
1000  7.358E+03
1010  5.969E+03
1020  4.761E+03
1030  3.653E+03
1040  2.749E+03
1050  2.036E+03
1060  1.463E+03
1070  1.081E+03
1080  8.315E+02
1090  6.335E+02
1100  4.867E+02
1110  3.690E+02
1120  2.763E+02
1130  2.005E+02
1140  1.408E+02
1150  9.368E+01
1160  5.854E+01
1170  3.195E+01
1180  1.074E+01
1190  4.802E+00
1200  2.943E+00
1210  1.793E+00
1220  1.112E+00
1230  6.478E-01
1240  3.383E-01
1250  1.439E-01
1260  5.517E-02
1270  3.092E-02
1280  1.886E-02
1290  1.174E-02
1300  7.576E-03
1310  4.651E-03
1320  2.785E-03
1330  1.449E-03
1340  6.714E-04
1350  3.318E-04
1360  1.764E-04
1370  1.073E-04
1380  6.802E-05
1390  4.052E-05
1400  2.567E-05
1410  1.482E-05
1420  9.495E-06
1430  4.667E-06
1440  2.914E-06
1450  1.998E-06
