/absorption data for Si
/from Martin A. Green / Prog Photovolt Res Appl.30, 164–179 (2022)
/lambda[nm]	alfa[m^-1]
250  1.838E+08
260  1.969E+08
270  2.171E+08
280  2.360E+08
290  2.303E+08
300  1.780E+08
310  1.478E+08
320  1.305E+08
330  1.187E+08
340  1.105E+08
350  1.056E+08
360  1.032E+08
370  7.180E+07
380  3.090E+07
390  1.521E+07
400  1.018E+07
410  7.193E+06
420  5.418E+06
430  4.130E+06
440  3.256E+06
450  2.759E+06
460  2.304E+06
470  1.934E+06
480  1.643E+06
490  1.407E+06
500  1.215E+06
510  1.062E+06
520  9.434E+05
530  8.462E+05
540  7.605E+05
550  6.868E+05
560  6.266E+05
570  5.712E+05
580  5.235E+05
590  4.844E+05
600  4.453E+05
610  4.126E+05
620  3.821E+05
630  3.538E+05
640  3.277E+05
650  3.040E+05
660  2.821E+05
670  2.622E+05
680  2.430E+05
690  2.249E+05
700  2.087E+05
710  1.929E+05
720  1.782E+05
730  1.644E+05
740  1.516E+05
750  1.396E+05
760  1.283E+05
770  1.179E+05
780  1.081E+05
790  9.923E+04
800  9.114E+04
810  8.335E+04
820  7.609E+04
830  6.946E+04
840  6.312E+04
850  5.721E+04
860  5.170E+04
870  4.668E+04
880  4.202E+04
890  3.758E+04
900  3.357E+04
910  2.984E+04
920  2.633E+04
930  2.301E+04
940  2.030E+04
950  1.765E+04
960  1.521E+04
970  1.300E+04
980  1.105E+04
990  9.279E+03
1000  7.679E+03
1010  6.250E+03
1020  5.004E+03
1030  3.852E+03
1040  2.910E+03
1050  2.170E+03
1060  1.567E+03
1070  1.163E+03
1080  8.967E+02
1090  6.849E+02
1100  5.286E+02
1110  4.017E+02
1120  3.015E+02
1130  2.193E+02
1140  1.547E+02
1150  1.034E+02
1160  6.525E+01
1170  3.613E+01
1180  1.250E+01
1190  5.652E+00
1200  3.480E+00
1210  2.145E+00
1220  1.337E+00
1230  7.845E-01
1240  4.107E-01
1250  1.764E-01
1260  6.792E-02
1270  3.833E-02
1280  2.355E-02
1290  1.487E-02
1300  9.707E-03
1310  6.031E-03
1320  3.664E-03
1330  1.933E-03
1340  9.128E-04
1350  4.554E-04
1360  2.426E-04
1370  1.480E-04
1380  9.400E-05
1390  5.613E-05
1400  3.572E-05
1410  2.072E-05
1420  1.334E-05
1430  6.591E-06
1440  4.135E-06
1450  2.848E-06
