/absorption data for Si
/from Martin A. Green / Prog Photovolt Res Appl.30, 164–179 (2022)
/lambda[nm]	alfa[m^-1]
250  1.837E+08
260  1.968E+08
270  2.170E+08
280  2.358E+08
290  2.303E+08
300  1.781E+08
310  1.479E+08
320  1.305E+08
330  1.187E+08
340  1.105E+08
350  1.056E+08
360  1.032E+08
370  7.186E+07
380  3.096E+07
390  1.528E+07
400  1.024E+07
410  7.234E+06
420  5.448E+06
430  4.152E+06
440  3.273E+06
450  2.774E+06
460  2.316E+06
470  1.944E+06
480  1.652E+06
490  1.415E+06
500  1.222E+06
510  1.068E+06
520  9.491E+05
530  8.514E+05
540  7.652E+05
550  6.911E+05
560  6.306E+05
570  5.748E+05
580  5.268E+05
590  4.875E+05
600  4.481E+05
610  4.153E+05
620  3.846E+05
630  3.561E+05
640  3.298E+05
650  3.060E+05
660  2.839E+05
670  2.639E+05
680  2.446E+05
690  2.264E+05
700  2.101E+05
710  1.942E+05
720  1.794E+05
730  1.656E+05
740  1.526E+05
750  1.405E+05
760  1.292E+05
770  1.188E+05
780  1.089E+05
790  9.993E+04
800  9.182E+04
810  8.399E+04
820  7.668E+04
830  7.003E+04
840  6.365E+04
850  5.770E+04
860  5.215E+04
870  4.711E+04
880  4.242E+04
890  3.795E+04
900  3.391E+04
910  3.015E+04
920  2.661E+04
930  2.326E+04
940  2.053E+04
950  1.786E+04
960  1.540E+04
970  1.318E+04
980  1.121E+04
990  9.424E+03
1000  7.810E+03
1010  6.365E+03
1020  5.103E+03
1030  3.934E+03
1040  2.976E+03
1050  2.225E+03
1060  1.610E+03
1070  1.198E+03
1080  9.240E+02
1090  7.064E+02
1100  5.462E+02
1110  4.154E+02
1120  3.121E+02
1130  2.272E+02
1140  1.606E+02
1150  1.076E+02
1160  6.811E+01
1170  3.793E+01
1180  1.327E+01
1190  6.028E+00
1200  3.719E+00
1210  2.303E+00
1220  1.437E+00
1230  8.463E-01
1240  4.435E-01
1250  1.911E-01
1260  7.375E-02
1270  4.174E-02
1280  2.571E-02
1290  1.632E-02
1300  1.071E-02
1310  6.683E-03
1320  4.084E-03
1330  2.167E-03
1340  1.031E-03
1350  5.161E-04
1360  2.753E-04
1370  1.680E-04
1380  1.068E-04
1390  6.386E-05
1400  4.071E-05
1410  2.366E-05
1420  1.526E-05
1430  7.555E-06
1440  4.748E-06
1450  3.277E-06
