/absorption data for Si
/from Martin A. Green / Prog Photovolt Res Appl.30, 164–179 (2022)
/lambda[nm]	alfa[m^-1]
250  1.837E+08
260  1.968E+08
270  2.168E+08
280  2.357E+08
290  2.304E+08
300  1.782E+08
310  1.480E+08
320  1.306E+08
330  1.187E+08
340  1.105E+08
350  1.056E+08
360  1.031E+08
370  7.191E+07
380  3.101E+07
390  1.536E+07
400  1.031E+07
410  7.276E+06
420  5.477E+06
430  4.174E+06
440  3.290E+06
450  2.788E+06
460  2.328E+06
470  1.955E+06
480  1.661E+06
490  1.423E+06
500  1.229E+06
510  1.074E+06
520  9.547E+05
530  8.566E+05
540  7.699E+05
550  6.953E+05
560  6.346E+05
570  5.784E+05
580  5.301E+05
590  4.905E+05
600  4.509E+05
610  4.180E+05
620  3.871E+05
630  3.584E+05
640  3.320E+05
650  3.080E+05
660  2.857E+05
670  2.657E+05
680  2.462E+05
690  2.280E+05
700  2.115E+05
710  1.955E+05
720  1.806E+05
730  1.667E+05
740  1.537E+05
750  1.415E+05
760  1.301E+05
770  1.196E+05
780  1.096E+05
790  1.006E+05
800  9.250E+04
810  8.463E+04
820  7.728E+04
830  7.060E+04
840  6.418E+04
850  5.819E+04
860  5.260E+04
870  4.754E+04
880  4.282E+04
890  3.831E+04
900  3.425E+04
910  3.047E+04
920  2.689E+04
930  2.352E+04
940  2.077E+04
950  1.808E+04
960  1.560E+04
970  1.336E+04
980  1.138E+04
990  9.572E+03
1000  7.943E+03
1010  6.482E+03
1020  5.204E+03
1030  4.017E+03
1040  3.043E+03
1050  2.282E+03
1060  1.654E+03
1070  1.233E+03
1080  9.519E+02
1090  7.283E+02
1100  5.642E+02
1110  4.296E+02
1120  3.230E+02
1130  2.353E+02
1140  1.667E+02
1150  1.118E+02
1160  7.108E+01
1170  3.981E+01
1180  1.408E+01
1190  6.427E+00
1200  3.972E+00
1210  2.471E+00
1220  1.545E+00
1230  9.125E-01
1240  4.786E-01
1250  2.070E-01
1260  8.004E-02
1270  4.542E-02
1280  2.806E-02
1290  1.791E-02
1300  1.180E-02
1310  7.401E-03
1320  4.549E-03
1330  2.427E-03
1340  1.163E-03
1350  5.845E-04
1360  3.120E-04
1370  1.906E-04
1380  1.213E-04
1390  7.258E-05
1400  4.636E-05
1410  2.699E-05
1420  1.744E-05
1430  8.653E-06
1440  5.449E-06
1450  3.767E-06
