/absorption data for Si
/from Martin A. Green / Prog Photovolt Res Appl.30, 164–179 (2022)
/lambda[nm]	alfa[m^-1]
250  1.836E+08
260  1.967E+08
270  2.166E+08
280  2.354E+08
290  2.304E+08
300  1.784E+08
310  1.481E+08
320  1.307E+08
330  1.187E+08
340  1.105E+08
350  1.056E+08
360  1.031E+08
370  7.203E+07
380  3.111E+07
390  1.551E+07
400  1.043E+07
410  7.359E+06
420  5.535E+06
430  4.219E+06
440  3.323E+06
450  2.817E+06
460  2.353E+06
470  1.975E+06
480  1.679E+06
490  1.439E+06
500  1.243E+06
510  1.086E+06
520  9.659E+05
530  8.670E+05
540  7.792E+05
550  7.037E+05
560  6.425E+05
570  5.857E+05
580  5.368E+05
590  4.967E+05
600  4.566E+05
610  4.234E+05
620  3.920E+05
630  3.630E+05
640  3.363E+05
650  3.120E+05
660  2.894E+05
670  2.692E+05
680  2.495E+05
690  2.310E+05
700  2.144E+05
710  1.982E+05
720  1.831E+05
730  1.690E+05
740  1.558E+05
750  1.434E+05
760  1.319E+05
770  1.212E+05
780  1.111E+05
790  1.020E+05
800  9.386E+04
810  8.590E+04
820  7.848E+04
830  7.175E+04
840  6.525E+04
850  5.918E+04
860  5.352E+04
870  4.840E+04
880  4.363E+04
890  3.905E+04
900  3.493E+04
910  3.110E+04
920  2.746E+04
930  2.403E+04
940  2.124E+04
950  1.851E+04
960  1.600E+04
970  1.372E+04
980  1.171E+04
990  9.870E+03
1000  8.211E+03
1010  6.718E+03
1020  5.410E+03
1030  4.187E+03
1040  3.181E+03
1050  2.398E+03
1060  1.745E+03
1070  1.305E+03
1080  1.010E+03
1090  7.739E+02
1100  6.018E+02
1110  4.590E+02
1120  3.457E+02
1130  2.524E+02
1140  1.794E+02
1150  1.208E+02
1160  7.735E+01
1170  4.382E+01
1180  1.584E+01
1190  7.297E+00
1200  4.527E+00
1210  2.842E+00
1220  1.784E+00
1230  1.059E+00
1240  5.567E-01
1250  2.426E-01
1260  9.412E-02
1270  5.371E-02
1280  3.336E-02
1290  2.153E-02
1300  1.432E-02
1310  9.061E-03
1320  5.632E-03
1330  3.038E-03
1340  1.477E-03
1350  7.479E-04
1360  4.000E-04
1370  2.448E-04
1380  1.561E-04
1390  9.356E-05
1400  5.998E-05
1410  3.505E-05
1420  2.273E-05
1430  1.132E-05
1440  7.156E-06
1450  4.965E-06
