/absorption data for Si
/from Martin A. Green / Prog Photovolt Res Appl.30, 164–179 (2022)
/lambda[nm]	alfa[m^-1]
250  1.836E+08
260  1.966E+08
270  2.165E+08
280  2.353E+08
290  2.304E+08
300  1.784E+08
310  1.482E+08
320  1.307E+08
330  1.187E+08
340  1.105E+08
350  1.056E+08
360  1.031E+08
370  7.205E+07
380  3.114E+07
390  1.554E+07
400  1.046E+07
410  7.380E+06
420  5.550E+06
430  4.230E+06
440  3.332E+06
450  2.824E+06
460  2.360E+06
470  1.981E+06
480  1.684E+06
490  1.443E+06
500  1.246E+06
510  1.090E+06
520  9.687E+05
530  8.696E+05
540  7.815E+05
550  7.059E+05
560  6.445E+05
570  5.875E+05
580  5.384E+05
590  4.982E+05
600  4.580E+05
610  4.248E+05
620  3.933E+05
630  3.641E+05
640  3.373E+05
650  3.129E+05
660  2.903E+05
670  2.701E+05
680  2.503E+05
690  2.317E+05
700  2.151E+05
710  1.989E+05
720  1.837E+05
730  1.695E+05
740  1.563E+05
750  1.439E+05
760  1.323E+05
770  1.216E+05
780  1.115E+05
790  1.024E+05
800  9.420E+04
810  8.623E+04
820  7.878E+04
830  7.204E+04
840  6.552E+04
850  5.942E+04
860  5.374E+04
870  4.861E+04
880  4.383E+04
890  3.923E+04
900  3.510E+04
910  3.126E+04
920  2.760E+04
930  2.416E+04
940  2.136E+04
950  1.862E+04
960  1.610E+04
970  1.381E+04
980  1.179E+04
990  9.946E+03
1000  8.279E+03
1010  6.778E+03
1020  5.462E+03
1030  4.230E+03
1040  3.216E+03
1050  2.428E+03
1060  1.768E+03
1070  1.324E+03
1080  1.024E+03
1090  7.857E+02
1100  6.115E+02
1110  4.666E+02
1120  3.516E+02
1130  2.568E+02
1140  1.827E+02
1150  1.232E+02
1160  7.899E+01
1170  4.487E+01
1180  1.631E+01
1190  7.531E+00
1200  4.676E+00
1210  2.942E+00
1220  1.848E+00
1230  1.099E+00
1240  5.780E-01
1250  2.523E-01
1260  9.798E-02
1270  5.599E-02
1280  3.482E-02
1290  2.254E-02
1300  1.502E-02
1310  9.527E-03
1320  5.939E-03
1330  3.212E-03
1340  1.568E-03
1350  7.951E-04
1360  4.254E-04
1370  2.605E-04
1380  1.662E-04
1390  9.965E-05
1400  6.394E-05
1410  3.739E-05
1420  2.427E-05
1430  1.210E-05
1440  7.656E-06
1450  5.317E-06
