/absorption data for Si
/from Martin A. Green / Prog Photovolt Res Appl.30, 164–179 (2022)
/lambda[nm]	alfa[m^-1]
250  1.836E+08
260  1.966E+08
270  2.164E+08
280  2.352E+08
290  2.305E+08
300  1.785E+08
310  1.483E+08
320  1.307E+08
330  1.188E+08
340  1.105E+08
350  1.056E+08
360  1.030E+08
370  7.211E+07
380  3.119E+07
390  1.561E+07
400  1.052E+07
410  7.421E+06
420  5.579E+06
430  4.252E+06
440  3.349E+06
450  2.838E+06
460  2.372E+06
470  1.991E+06
480  1.693E+06
490  1.450E+06
500  1.253E+06
510  1.096E+06
520  9.744E+05
530  8.748E+05
540  7.862E+05
550  7.101E+05
560  6.485E+05
570  5.911E+05
580  5.417E+05
590  5.013E+05
600  4.608E+05
610  4.275E+05
620  3.958E+05
630  3.665E+05
640  3.395E+05
650  3.149E+05
660  2.922E+05
670  2.718E+05
680  2.519E+05
690  2.332E+05
700  2.166E+05
710  2.002E+05
720  1.849E+05
730  1.707E+05
740  1.573E+05
750  1.449E+05
760  1.332E+05
770  1.224E+05
780  1.122E+05
790  1.031E+05
800  9.489E+04
810  8.687E+04
820  7.938E+04
830  7.261E+04
840  6.605E+04
850  5.992E+04
860  5.420E+04
870  4.904E+04
880  4.424E+04
890  3.960E+04
900  3.545E+04
910  3.157E+04
920  2.789E+04
930  2.442E+04
940  2.160E+04
950  1.884E+04
960  1.630E+04
970  1.400E+04
980  1.196E+04
990  1.010E+04
1000  8.417E+03
1010  6.899E+03
1020  5.568E+03
1030  4.317E+03
1040  3.287E+03
1050  2.488E+03
1060  1.815E+03
1070  1.361E+03
1080  1.055E+03
1090  8.096E+02
1100  6.312E+02
1110  4.821E+02
1120  3.636E+02
1130  2.658E+02
1140  1.895E+02
1150  1.279E+02
1160  8.235E+01
1170  4.705E+01
1180  1.729E+01
1190  8.018E+00
1200  4.987E+00
1210  3.153E+00
1220  1.984E+00
1230  1.183E+00
1240  6.228E-01
1250  2.728E-01
1260  1.061E-01
1270  6.082E-02
1280  3.793E-02
1290  2.468E-02
1300  1.653E-02
1310  1.053E-02
1320  6.600E-03
1330  3.589E-03
1340  1.764E-03
1350  8.981E-04
1360  4.810E-04
1370  2.948E-04
1380  1.882E-04
1390  1.130E-04
1400  7.261E-05
1410  4.254E-05
1420  2.767E-05
1430  1.382E-05
1440  8.760E-06
1450  6.095E-06
