/absorption data for Si
/from Martin A. Green / Prog Photovolt Res Appl.30, 164–179 (2022)
/lambda[nm]	alfa[m^-1]
250  1.836E+08
260  1.965E+08
270  2.163E+08
280  2.350E+08
290  2.305E+08
300  1.786E+08
310  1.484E+08
320  1.307E+08
330  1.188E+08
340  1.105E+08
350  1.056E+08
360  1.030E+08
370  7.216E+07
380  3.124E+07
390  1.569E+07
400  1.059E+07
410  7.463E+06
420  5.608E+06
430  4.275E+06
440  3.366E+06
450  2.852E+06
460  2.384E+06
470  2.001E+06
480  1.702E+06
490  1.458E+06
500  1.260E+06
510  1.102E+06
520  9.800E+05
530  8.800E+05
540  7.909E+05
550  7.143E+05
560  6.524E+05
570  5.947E+05
580  5.451E+05
590  5.044E+05
600  4.636E+05
610  4.302E+05
620  3.983E+05
630  3.688E+05
640  3.416E+05
650  3.169E+05
660  2.940E+05
670  2.736E+05
680  2.536E+05
690  2.348E+05
700  2.180E+05
710  2.015E+05
720  1.862E+05
730  1.718E+05
740  1.584E+05
750  1.458E+05
760  1.341E+05
770  1.232E+05
780  1.130E+05
790  1.038E+05
800  9.557E+04
810  8.751E+04
820  7.998E+04
830  7.319E+04
840  6.659E+04
850  6.042E+04
860  5.466E+04
870  4.948E+04
880  4.465E+04
890  3.997E+04
900  3.579E+04
910  3.189E+04
920  2.817E+04
930  2.468E+04
940  2.185E+04
950  1.907E+04
960  1.651E+04
970  1.418E+04
980  1.213E+04
990  1.025E+04
1000  8.555E+03
1010  7.022E+03
1020  5.675E+03
1030  4.406E+03
1040  3.360E+03
1050  2.550E+03
1060  1.864E+03
1070  1.400E+03
1080  1.086E+03
1090  8.341E+02
1100  6.515E+02
1110  4.980E+02
1120  3.760E+02
1130  2.751E+02
1140  1.964E+02
1150  1.329E+02
1160  8.584E+01
1170  4.932E+01
1180  1.832E+01
1190  8.534E+00
1200  5.318E+00
1210  3.376E+00
1220  2.129E+00
1230  1.273E+00
1240  6.707E-01
1250  2.949E-01
1260  1.149E-01
1270  6.603E-02
1280  4.129E-02
1290  2.702E-02
1300  1.817E-02
1310  1.163E-02
1320  7.330E-03
1330  4.008E-03
1340  1.984E-03
1350  1.014E-03
1360  5.434E-04
1370  3.333E-04
1380  2.130E-04
1390  1.280E-04
1400  8.240E-05
1410  4.836E-05
1420  3.151E-05
1430  1.577E-05
1440  1.001E-05
1450  6.980E-06
