/absorption data for Si
/from Martin A. Green / Prog Photovolt Res Appl.30, 164–179 (2022)
/lambda[nm]	alfa[m^-1]
250  1.835E+08
260  1.965E+08
270  2.162E+08
280  2.350E+08
290  2.305E+08
300  1.786E+08
310  1.484E+08
320  1.308E+08
330  1.188E+08
340  1.105E+08
350  1.056E+08
360  1.030E+08
370  7.219E+07
380  3.127E+07
390  1.572E+07
400  1.062E+07
410  7.483E+06
420  5.623E+06
430  4.286E+06
440  3.374E+06
450  2.860E+06
460  2.390E+06
470  2.007E+06
480  1.707E+06
490  1.462E+06
500  1.264E+06
510  1.105E+06
520  9.828E+05
530  8.826E+05
540  7.932E+05
550  7.164E+05
560  6.544E+05
570  5.965E+05
580  5.467E+05
590  5.059E+05
600  4.650E+05
610  4.315E+05
620  3.995E+05
630  3.699E+05
640  3.427E+05
650  3.179E+05
660  2.949E+05
670  2.745E+05
680  2.544E+05
690  2.355E+05
700  2.187E+05
710  2.022E+05
720  1.868E+05
730  1.724E+05
740  1.589E+05
750  1.463E+05
760  1.345E+05
770  1.237E+05
780  1.133E+05
790  1.042E+05
800  9.591E+04
810  8.783E+04
820  8.028E+04
830  7.348E+04
840  6.685E+04
850  6.067E+04
860  5.489E+04
870  4.969E+04
880  4.485E+04
890  4.016E+04
900  3.597E+04
910  3.205E+04
920  2.832E+04
930  2.481E+04
940  2.197E+04
950  1.918E+04
960  1.661E+04
970  1.427E+04
980  1.221E+04
990  1.033E+04
1000  8.625E+03
1010  7.084E+03
1020  5.729E+03
1030  4.450E+03
1040  3.396E+03
1050  2.581E+03
1060  1.888E+03
1070  1.420E+03
1080  1.101E+03
1090  8.466E+02
1100  6.618E+02
1110  5.061E+02
1120  3.823E+02
1130  2.798E+02
1140  2.000E+02
1150  1.354E+02
1160  8.764E+01
1170  5.048E+01
1180  1.885E+01
1190  8.802E+00
1200  5.490E+00
1210  3.494E+00
1220  2.205E+00
1230  1.321E+00
1240  6.959E-01
1250  3.065E-01
1260  1.196E-01
1270  6.879E-02
1280  4.308E-02
1290  2.826E-02
1300  1.905E-02
1310  1.222E-02
1320  7.723E-03
1330  4.234E-03
1340  2.104E-03
1350  1.077E-03
1360  5.774E-04
1370  3.544E-04
1380  2.265E-04
1390  1.361E-04
1400  8.775E-05
1410  5.155E-05
1420  3.362E-05
1430  1.684E-05
1440  1.070E-05
1450  7.467E-06
