/absorption data for Si
/from Martin A. Green / Prog Photovolt Res Appl.30, 164–179 (2022)
/lambda[nm]	alfa[m^-1]
250  1.835E+08
260  1.964E+08
270  2.160E+08
280  2.347E+08
290  2.306E+08
300  1.788E+08
310  1.486E+08
320  1.308E+08
330  1.188E+08
340  1.105E+08
350  1.056E+08
360  1.030E+08
370  7.230E+07
380  3.137E+07
390  1.587E+07
400  1.074E+07
410  7.566E+06
420  5.681E+06
430  4.330E+06
440  3.408E+06
450  2.888E+06
460  2.415E+06
470  2.027E+06
480  1.725E+06
490  1.478E+06
500  1.278E+06
510  1.117E+06
520  9.940E+05
530  8.930E+05
540  8.026E+05
550  7.248E+05
560  6.624E+05
570  6.038E+05
580  5.534E+05
590  5.120E+05
600  4.707E+05
610  4.369E+05
620  4.045E+05
630  3.745E+05
640  3.470E+05
650  3.219E+05
660  2.986E+05
670  2.780E+05
680  2.577E+05
690  2.385E+05
700  2.216E+05
710  2.049E+05
720  1.893E+05
730  1.747E+05
740  1.610E+05
750  1.483E+05
760  1.363E+05
770  1.253E+05
780  1.148E+05
790  1.056E+05
800  9.729E+04
810  8.912E+04
820  8.148E+04
830  7.463E+04
840  6.793E+04
850  6.166E+04
860  5.582E+04
870  5.057E+04
880  4.567E+04
890  4.091E+04
900  3.666E+04
910  3.270E+04
920  2.890E+04
930  2.534E+04
940  2.246E+04
950  1.962E+04
960  1.702E+04
970  1.465E+04
980  1.255E+04
990  1.064E+04
1000  8.908E+03
1010  7.334E+03
1020  5.949E+03
1030  4.632E+03
1040  3.545E+03
1050  2.709E+03
1060  1.989E+03
1070  1.501E+03
1080  1.166E+03
1090  8.980E+02
1100  7.045E+02
1110  5.397E+02
1120  4.084E+02
1130  2.994E+02
1140  2.148E+02
1150  1.459E+02
1160  9.512E+01
1170  5.541E+01
1180  2.114E+01
1190  9.956E+00
1200  6.232E+00
1210  4.001E+00
1220  2.534E+00
1230  1.527E+00
1240  8.058E-01
1250  3.575E-01
1260  1.399E-01
1270  8.094E-02
1280  5.095E-02
1290  3.378E-02
1300  2.298E-02
1310  1.487E-02
1320  9.502E-03
1330  5.265E-03
1340  2.654E-03
1350  1.368E-03
1360  7.347E-04
1370  4.517E-04
1380  2.893E-04
1390  1.742E-04
1400  1.127E-04
1410  6.642E-05
1420  4.347E-05
1430  2.187E-05
1440  1.394E-05
1450  9.762E-06
