/absorption data for Si
/from Martin A. Green / Prog Photovolt Res Appl.30, 164–179 (2022)
/lambda[nm]	alfa[m^-1]
250  1.835E+08
260  1.964E+08
270  2.159E+08
280  2.346E+08
290  2.306E+08
300  1.788E+08
310  1.486E+08
320  1.308E+08
330  1.188E+08
340  1.105E+08
350  1.056E+08
360  1.029E+08
370  7.232E+07
380  3.140E+07
390  1.591E+07
400  1.077E+07
410  7.587E+06
420  5.695E+06
430  4.341E+06
440  3.416E+06
450  2.895E+06
460  2.421E+06
470  2.033E+06
480  1.730E+06
490  1.482E+06
500  1.281E+06
510  1.120E+06
520  9.968E+05
530  8.956E+05
540  8.049E+05
550  7.270E+05
560  6.644E+05
570  6.056E+05
580  5.550E+05
590  5.136E+05
600  4.721E+05
610  4.382E+05
620  4.058E+05
630  3.757E+05
640  3.480E+05
650  3.229E+05
660  2.996E+05
670  2.789E+05
680  2.585E+05
690  2.393E+05
700  2.224E+05
710  2.055E+05
720  1.899E+05
730  1.752E+05
740  1.615E+05
750  1.487E+05
760  1.368E+05
770  1.257E+05
780  1.152E+05
790  1.059E+05
800  9.763E+04
810  8.944E+04
820  8.178E+04
830  7.492E+04
840  6.820E+04
850  6.192E+04
860  5.605E+04
870  5.078E+04
880  4.588E+04
890  4.110E+04
900  3.684E+04
910  3.286E+04
920  2.904E+04
930  2.547E+04
940  2.258E+04
950  1.974E+04
960  1.712E+04
970  1.474E+04
980  1.264E+04
990  1.072E+04
1000  8.980E+03
1010  7.398E+03
1020  6.004E+03
1030  4.679E+03
1040  3.583E+03
1050  2.741E+03
1060  2.014E+03
1070  1.521E+03
1080  1.183E+03
1090  9.112E+02
1100  7.155E+02
1110  5.484E+02
1120  4.151E+02
1130  3.045E+02
1140  2.186E+02
1150  1.487E+02
1160  9.708E+01
1170  5.670E+01
1180  2.174E+01
1190  1.027E+01
1200  6.431E+00
1210  4.138E+00
1220  2.623E+00
1230  1.582E+00
1240  8.357E-01
1250  3.714E-01
1260  1.455E-01
1270  8.427E-02
1280  5.312E-02
1290  3.531E-02
1300  2.407E-02
1310  1.561E-02
1320  1.000E-02
1330  5.558E-03
1340  2.811E-03
1350  1.451E-03
1360  7.800E-04
1370  4.798E-04
1380  3.074E-04
1390  1.852E-04
1400  1.199E-04
1410  7.073E-05
1420  4.633E-05
1430  2.333E-05
1440  1.489E-05
1450  1.043E-05
