/absorption data for Si
/from Martin A. Green / Prog Photovolt Res Appl.30, 164–179 (2022)
/lambda[nm]	alfa[m^-1]
250  1.835E+08
260  1.963E+08
270  2.159E+08
280  2.345E+08
290  2.306E+08
300  1.788E+08
310  1.487E+08
320  1.309E+08
330  1.188E+08
340  1.105E+08
350  1.056E+08
360  1.029E+08
370  7.235E+07
380  3.142E+07
390  1.594E+07
400  1.081E+07
410  7.608E+06
420  5.710E+06
430  4.352E+06
440  3.425E+06
450  2.902E+06
460  2.428E+06
470  2.038E+06
480  1.734E+06
490  1.486E+06
500  1.285E+06
510  1.123E+06
520  9.996E+05
530  8.982E+05
540  8.072E+05
550  7.291E+05
560  6.664E+05
570  6.074E+05
580  5.567E+05
590  5.151E+05
600  4.735E+05
610  4.396E+05
620  4.070E+05
630  3.769E+05
640  3.491E+05
650  3.239E+05
660  3.005E+05
670  2.798E+05
680  2.593E+05
690  2.401E+05
700  2.231E+05
710  2.062E+05
720  1.905E+05
730  1.758E+05
740  1.621E+05
750  1.492E+05
760  1.372E+05
770  1.261E+05
780  1.156E+05
790  1.063E+05
800  9.797E+04
810  8.976E+04
820  8.209E+04
830  7.521E+04
840  6.847E+04
850  6.217E+04
860  5.628E+04
870  5.100E+04
880  4.608E+04
890  4.129E+04
900  3.701E+04
910  3.302E+04
920  2.919E+04
930  2.560E+04
940  2.270E+04
950  1.985E+04
960  1.723E+04
970  1.484E+04
980  1.273E+04
990  1.080E+04
1000  9.052E+03
1010  7.462E+03
1020  6.061E+03
1030  4.725E+03
1040  3.622E+03
1050  2.774E+03
1060  2.040E+03
1070  1.542E+03
1080  1.200E+03
1090  9.246E+02
1100  7.266E+02
1110  5.572E+02
1120  4.220E+02
1130  3.097E+02
1140  2.225E+02
1150  1.515E+02
1160  9.907E+01
1170  5.802E+01
1180  2.237E+01
1190  1.058E+01
1200  6.636E+00
1210  4.279E+00
1220  2.715E+00
1230  1.640E+00
1240  8.665E-01
1250  3.857E-01
1260  1.513E-01
1270  8.773E-02
1280  5.537E-02
1290  3.691E-02
1300  2.521E-02
1310  1.639E-02
1320  1.053E-02
1330  5.866E-03
1340  2.977E-03
1350  1.540E-03
1360  8.279E-04
1370  5.095E-04
1380  3.266E-04
1390  1.968E-04
1400  1.275E-04
1410  7.531E-05
1420  4.937E-05
1430  2.488E-05
1440  1.590E-05
1450  1.115E-05
