/absorption data for Si
/from Martin A. Green / Prog Photovolt Res Appl.30, 164–179 (2022)
/lambda[nm]	alfa[m^-1]
250  1.834E+08
260  1.963E+08
270  2.158E+08
280  2.345E+08
290  2.306E+08
300  1.789E+08
310  1.487E+08
320  1.309E+08
330  1.188E+08
340  1.105E+08
350  1.056E+08
360  1.029E+08
370  7.238E+07
380  3.145E+07
390  1.598E+07
400  1.084E+07
410  7.628E+06
420  5.724E+06
430  4.363E+06
440  3.433E+06
450  2.909E+06
460  2.434E+06
470  2.043E+06
480  1.739E+06
490  1.490E+06
500  1.288E+06
510  1.126E+06
520  1.002E+06
530  9.008E+05
540  8.096E+05
550  7.312E+05
560  6.683E+05
570  6.092E+05
580  5.583E+05
590  5.166E+05
600  4.749E+05
610  4.409E+05
620  4.083E+05
630  3.780E+05
640  3.502E+05
650  3.249E+05
660  3.014E+05
670  2.807E+05
680  2.601E+05
690  2.408E+05
700  2.238E+05
710  2.069E+05
720  1.911E+05
730  1.764E+05
740  1.626E+05
750  1.497E+05
760  1.376E+05
770  1.265E+05
780  1.160E+05
790  1.066E+05
800  9.832E+04
810  9.009E+04
820  8.239E+04
830  7.550E+04
840  6.874E+04
850  6.242E+04
860  5.651E+04
870  5.122E+04
880  4.629E+04
890  4.147E+04
900  3.719E+04
910  3.318E+04
920  2.933E+04
930  2.573E+04
940  2.283E+04
950  1.996E+04
960  1.733E+04
970  1.493E+04
980  1.281E+04
990  1.088E+04
1000  9.125E+03
1010  7.526E+03
1020  6.117E+03
1030  4.772E+03
1040  3.660E+03
1050  2.808E+03
1060  2.067E+03
1070  1.564E+03
1080  1.217E+03
1090  9.381E+02
1100  7.379E+02
1110  5.661E+02
1120  4.289E+02
1130  3.149E+02
1140  2.265E+02
1150  1.543E+02
1160  1.011E+02
1170  5.936E+01
1180  2.301E+01
1190  1.091E+01
1200  6.846E+00
1210  4.425E+00
1220  2.809E+00
1230  1.700E+00
1240  8.985E-01
1250  4.007E-01
1260  1.573E-01
1270  9.132E-02
1280  5.772E-02
1290  3.857E-02
1300  2.640E-02
1310  1.720E-02
1320  1.108E-02
1330  6.190E-03
1340  3.153E-03
1350  1.633E-03
1360  8.787E-04
1370  5.409E-04
1380  3.469E-04
1390  2.091E-04
1400  1.356E-04
1410  8.017E-05
1420  5.260E-05
1430  2.654E-05
1440  1.697E-05
1450  1.191E-05
