/absorption data for Si
/from Martin A. Green / Prog Photovolt Res Appl.30, 164–179 (2022)
/lambda[nm]	alfa[m^-1]
250  1.842E+08
260  1.977E+08
270  2.189E+08
280  2.380E+08
290  2.298E+08
300  1.769E+08
310  1.466E+08
320  1.300E+08
330  1.185E+08
340  1.104E+08
350  1.056E+08
360  1.036E+08
370  7.101E+07
380  3.017E+07
390  1.421E+07
400  9.334E+06
410  6.630E+06
420  5.021E+06
430  3.827E+06
440  3.025E+06
450  2.563E+06
460  2.135E+06
470  1.792E+06
480  1.518E+06
490  1.301E+06
500  1.120E+06
510  9.789E+05
520  8.673E+05
530  7.759E+05
540  6.973E+05
550  6.298E+05
560  5.731E+05
570  5.224E+05
580  4.788E+05
590  4.430E+05
600  4.072E+05
610  3.764E+05
620  3.485E+05
630  3.227E+05
640  2.989E+05
650  2.773E+05
660  2.573E+05
670  2.385E+05
680  2.210E+05
690  2.046E+05
700  1.893E+05
710  1.750E+05
720  1.617E+05
730  1.492E+05
740  1.375E+05
750  1.266E+05
760  1.164E+05
770  1.070E+05
780  9.809E+04
790  8.980E+04
800  8.204E+04
810  7.484E+04
820  6.813E+04
830  6.188E+04
840  5.608E+04
850  5.069E+04
860  4.569E+04
870  4.104E+04
880  3.675E+04
890  3.278E+04
900  2.913E+04
910  2.576E+04
920  2.267E+04
930  1.971E+04
940  1.724E+04
950  1.488E+04
960  1.269E+04
970  1.073E+04
980  9.004E+03
990  7.440E+03
1000  6.046E+03
1010  4.831E+03
1020  3.787E+03
1030  2.863E+03
1040  2.117E+03
1050  1.518E+03
1060  1.068E+03
1070  7.721E+02
1080  5.874E+02
1090  4.427E+02
1100  3.329E+02
1110  2.496E+02
1120  1.849E+02
1130  1.327E+02
1140  9.124E+01
1150  5.940E+01
1160  3.556E+01
1170  1.815E+01
1180  5.362E+00
1190  2.271E+00
1200  1.362E+00
1210  7.861E-01
1220  4.770E-01
1230  2.685E-01
1240  1.387E-01
1250  5.651E-02
1260  2.120E-02
1270  1.150E-02
1280  6.794E-03
1290  3.964E-03
1300  2.423E-03
1310  1.410E-03
1320  7.895E-04
1330  3.850E-04
1340  1.636E-04
1350  7.745E-05
1360  4.073E-05
1370  2.452E-05
1380  1.537E-05
1390  9.059E-06
1400  5.615E-06
1410  3.172E-06
1420  1.989E-06
1430  9.549E-07
1440  5.836E-07
1450  3.915E-07
